#THIS SPECTRUM IS BASED ON SOLAR2000 UP TO 105 NM AND PANAYOTIS MODEL FROM THERE ON.
      1.0000      2.0000    2.2969e+07    1.00
      2.0000      3.0000    6.6568e+07    1.00
      3.0000      4.0000    1.3769e+07    1.00
      4.0000      5.0000    1.1473e+08    1.00
      5.0500     10.0000    1.9464e+09    1.00
     10.0500     14.8400    8.3055e+08    1.00
     15.0100     19.8600    5.0334e+09    1.00
     20.0000     24.9200    4.4043e+09    1.00
     25.6300     25.6300    6.2246e+08    1.00
     25.1100     29.9500    7.0547e+09    1.00
     28.4100     28.4100    7.5328e+08    1.00
     30.3300     30.3300    1.5592e+09    1.00
     30.3800     30.3800    1.5592e+09    1.00
     30.3300     34.9900    1.0272e+10    1.00
     36.8100     36.8100    1.0892e+09    1.00
     35.6000     39.9800    2.0366e+09    1.00
     40.1100     43.6700    9.3802e+08    1.00
     46.5200     46.5200    2.6670e+08    1.00
     45.3000     49.9400    1.2342e+09    1.00
     50.0000     55.0000    1.2872e+09    1.00
     55.4400     55.4400    1.0066e+08    1.00
     55.4400     59.9600    1.9644e+09    1.00
     58.4300     58.4300    1.3609e+08    1.00
     60.9800     60.9800    5.4560e+08    1.00
     60.9800     64.4100    1.3114e+09    1.00
     62.9700     62.9700    7.2440e+08    1.00
     65.0300     70.0000    6.8161e+08    1.00
     70.3400     70.3400    1.2723e+08    1.00
     70.1000     75.0000    7.7351e+08    1.00
     76.5200     76.5200    1.6064e+08    1.00
     77.0400     77.0400    2.0457e+08    1.00
     75.0000     80.0000    1.3430e+09    1.00
     78.7700     78.7700    3.9886e+08    1.00
     80.1000     85.0000    3.1343e+09    1.00
     85.1000     90.0000    6.2220e+09    1.00
     90.1000     95.0000    7.2139e+09    1.00
     95.1000    100.0000    3.3334e+09    1.00
     97.7000     97.7000    4.7346e+09    1.00
    100.1000    105.0000    3.7740e+10    1.00
    102.5700    102.5700    3.2631e+09    1.00
    103.1900    103.1900    2.3800e+09    1.00
    105.0000    106.0000    6.5005e+08    1.00
    106.0000    107.0000    6.2490e+08    1.00
    107.0000    108.0000    6.6969e+08    1.00
    108.0000    109.0000    1.1330e+09    1.00
    109.0000    110.0000    7.6911e+08    1.00
    110.0000    111.0000    8.2795e+08    1.00
    111.0000    112.0000    7.7667e+08    1.00
    112.0000    113.0000    8.3945e+08    1.00
    113.0000    114.0000    6.7247e+08    1.00
    114.0000    115.0000    4.5916e+08    1.00
    115.0000    116.0000    7.6120e+08    1.00
    116.0000    117.0000    8.6756e+08    1.00
    117.0000    118.0000    3.6546e+09    1.00
    118.0000    118.7625    7.5765e+08    1.00
    118.7625    119.0500    7.7857e+08    1.00
    119.0500    119.1000    1.3588e+08    1.00
    119.1000    119.1500    1.3563e+08    1.00
    119.1500    119.2000    1.3709e+08    1.00
    119.2000    119.2500    1.4169e+08    1.00
    119.2500    119.3000    1.4952e+08    1.00
    119.3000    119.3500    1.5841e+08    1.00
    119.3500    119.4000    1.6535e+08    1.00
    119.4000    119.4500    1.6796e+08    1.00
    119.4500    119.5000    1.6561e+08    1.00
    119.5000    119.5500    1.5901e+08    1.00
    119.5500    119.6000    1.5082e+08    1.00
    119.6000    119.6500    1.4402e+08    1.00
    119.6500    119.7000    1.4015e+08    1.00
    119.7000    119.7500    1.4011e+08    1.00
    119.7500    119.8000    1.4445e+08    1.00
    119.8000    119.8500    1.5202e+08    1.00
    119.8500    119.9000    1.6104e+08    1.00
    119.9000    119.9500    1.6972e+08    1.00
    119.9500    120.0000    1.7569e+08    1.00
    120.0000    120.0500    1.7692e+08    1.00
    120.0500    120.1000    1.7315e+08    1.00
    120.1000    120.1500    1.6528e+08    1.00
    120.1500    120.2000    1.5580e+08    1.00
    120.2000    120.2500    1.4763e+08    1.00
    120.2500    120.3000    1.4408e+08    1.00
    120.3000    120.3500    1.5551e+08    1.00
    120.3500    120.4000    2.0207e+08    1.00
    120.4000    120.4500    3.0214e+08    1.00
    120.4500    120.5000    4.6105e+08    1.00
    120.5000    120.5500    6.6289e+08    1.00
    120.5500    120.6000    8.6493e+08    1.00
    120.6000    120.6500    1.0084e+09    1.00
    120.6500    120.7000    1.0482e+09    1.00
    120.7000    120.7500    9.7008e+08    1.00
    120.7500    120.8000    8.0286e+08    1.00
    120.8000    120.8500    6.0497e+08    1.00
    120.8500    120.9000    4.3084e+08    1.00
    120.9000    120.9500    3.1124e+08    1.00
    120.9500    121.0000    2.5585e+08    1.00
    121.0000    121.0500    2.6001e+08    1.00
    121.0500    121.1000    2.8582e+08    1.00
    121.1000    121.1500    3.4100e+08    1.00
    121.1500    121.2000    4.1493e+08    1.00
    121.2000    121.2500    5.4142e+08    1.00
    121.2500    121.3000    7.2221e+08    1.00
    121.3000    121.3500    1.0838e+09    1.00
    121.3500    121.4000    1.8070e+09    1.00
    121.4000    121.4435    3.1454e+09    1.00
    121.4435    121.4695    3.3849e+09    1.00
    121.4695    121.4795    1.9095e+09    1.00
    121.4795    121.4845    1.1248e+09    1.00
    121.4845    121.4895    1.3491e+09    1.00
    121.4895    121.4945    1.6457e+09    1.00
    121.4945    121.4995    2.0509e+09    1.00
    121.4995    121.5045    2.6406e+09    1.00
    121.5045    121.5095    3.4581e+09    1.00
    121.5095    121.5145    4.5294e+09    1.00
    121.5145    121.5195    6.0859e+09    1.00
    121.5195    121.5245    8.4717e+09    1.00
    121.5245    121.5295    1.1653e+10    1.00
    121.5295    121.5345    1.5813e+10    1.00
    121.5345    121.5395    2.0280e+10    1.00
    121.5395    121.5445    2.3951e+10    1.00
    121.5445    121.5495    2.5390e+10    1.00
    121.5495    121.5545    2.4167e+10    1.00
    121.5545    121.5595    2.1476e+10    1.00
    121.5595    121.5645    1.9166e+10    1.00
    121.5645    121.5695    1.7881e+10    1.00
    121.5695    121.5745    1.7685e+10    1.00
    121.5745    121.5795    1.8634e+10    1.00
    121.5795    121.5845    2.0593e+10    1.00
    121.5845    121.5895    2.2981e+10    1.00
    121.5895    121.5945    2.4695e+10    1.00
    121.5945    121.5995    2.3962e+10    1.00
    121.5995    121.6045    2.0780e+10    1.00
    121.6045    121.6095    1.6435e+10    1.00
    121.6095    121.6145    1.2396e+10    1.00
    121.6145    121.6195    8.9135e+09    1.00
    121.6195    121.6245    6.4633e+09    1.00
    121.6245    121.6295    4.7752e+09    1.00
    121.6295    121.6345    3.5815e+09    1.00
    121.6345    121.6395    2.7449e+09    1.00
    121.6395    121.6445    2.1873e+09    1.00
    121.6445    121.6495    1.8108e+09    1.00
    121.6495    121.6545    1.5211e+09    1.00
    121.6545    121.6595    1.3039e+09    1.00
    121.6595    121.6645    1.1228e+09    1.00
    121.6645    121.6760    2.2496e+09    1.00
    121.6760    121.7050    3.7828e+09    1.00
    121.7050    121.7500    3.2620e+09    1.00
    121.7500    121.8000    1.8129e+09    1.00
    121.8000    121.8500    1.0882e+09    1.00
    121.8500    121.9000    7.2573e+08    1.00
    121.9000    121.9500    5.4451e+08    1.00
    121.9500    122.0000    4.3581e+08    1.00
    122.0000    122.0500    3.6334e+08    1.00
    122.0500    122.1000    3.2714e+08    1.00
    122.1000    122.1500    2.9090e+08    1.00
    122.1500    122.2000    2.5465e+08    1.00
    122.2000    122.2500    2.3557e+08    1.00
    122.2500    122.3000    2.0614e+08    1.00
    122.3000    122.3500    1.8450e+08    1.00
    122.3500    122.4000    1.6924e+08    1.00
    122.4000    122.4500    1.5813e+08    1.00
    122.4500    122.5000    1.4952e+08    1.00
    122.5000    122.5500    1.4199e+08    1.00
    122.5500    122.6000    1.3570e+08    1.00
    122.6000    122.6500    1.2987e+08    1.00
    122.6500    122.7000    1.2540e+08    1.00
    122.7000    122.7500    1.2176e+08    1.00
    122.7500    122.8000    1.1822e+08    1.00
    122.8000    122.8500    1.1479e+08    1.00
    122.8500    122.9000    1.1162e+08    1.00
    122.9000    122.9500    1.0852e+08    1.00
    122.9500    123.2375    6.3151e+08    1.00
    123.2375    124.0000    1.8515e+09    1.00
    124.0000    125.0000    2.0682e+09    1.00
    125.0000    126.0000    1.8627e+09    1.00
    126.0000    127.0000    2.6299e+09    1.00
    127.0000    128.0000    1.4178e+09    1.00
    128.0000    129.0000    1.1757e+09    1.00
    129.0000    130.0000    1.4747e+09    1.00
    130.0000    131.0000    1.1131e+10    1.00
    131.0000    132.0000    1.9051e+09    1.00
    132.0000    133.0000    1.4755e+09    1.00
    133.0000    133.6250    2.1088e+10    1.00
    133.6250    134.2000    8.6397e+09    1.00
    134.2000    135.1000    1.3503e+09    1.00
    135.1000    136.0250    2.8543e+09    1.00
    136.0250    136.9750    1.9075e+09    1.00
    136.9750    137.9250    2.0377e+09    1.00
    137.9250    139.1200    2.6062e+09    1.00
    139.1200    140.8150    9.1673e+09    1.00
    140.8150    142.8150    7.1944e+09    1.00
    142.8150    144.8900    8.3564e+09    1.00
    144.8900    147.0150    1.0372e+10    1.00
    147.0150    149.2150    1.5085e+10    1.00
    149.2150    151.4900    1.5953e+10    1.00
    151.4900    153.8150    2.2784e+10    1.00
    153.8150    156.2150    4.1534e+10    1.00
    156.2150    158.7150    3.8757e+10    1.00
    158.7150    161.2900    4.1248e+10    1.00
    161.2900    163.9400    6.0095e+10    1.00
    163.9400    166.6900    9.4560e+10    1.00
    166.6900    169.5150    1.1513e+11    1.00
    169.5150    172.0450    1.5896e+11    1.00
    172.0450    173.9000    1.2905e+11    1.00
    173.9000    175.4250    1.3803e+11    1.00
    175.4250    177.0000    1.7777e+11    1.00
    177.0000    178.6000    2.3594e+11    1.00
    178.6000    180.2000    2.5612e+11    1.00
    180.2000    181.8250    3.3611e+11    1.00
    181.8250    183.5000    3.6611e+11    1.00
    183.5000    185.2000    3.5535e+11    1.00
    185.2000    186.9250    4.2087e+11    1.00
    186.9250    188.7000    5.4698e+11    1.00
    188.7000    190.5000    6.5238e+11    1.00
    190.5000    192.3250    7.5648e+11    1.00
    192.3250    194.2000    7.6535e+11    1.00
    194.2000    196.1000    1.0925e+12    1.00
    196.1000    198.0250    1.2523e+12    1.00
    198.0250    200.0000    1.3741e+12    1.00
    200.0000    202.0250    1.7152e+12    1.00
    202.0250    204.1000    2.0189e+12    1.00
    204.1000    206.1950    2.4665e+12    1.00
    206.1950    208.3150    2.9637e+12    1.00
    208.3150    210.5150    5.1018e+12    1.00
    210.5150    212.7650    8.1984e+12    1.00
    212.7650    215.0400    9.2595e+12    1.00
    215.0400    217.3900    9.0282e+12    1.00
    217.3900    219.7900    1.2096e+13    1.00
    219.7900    222.2150    1.2248e+13    1.00
    222.2150    224.7150    1.7350e+13    1.00
    224.7150    227.2900    1.4032e+13    1.00
    227.2900    229.9150    1.4802e+13    1.00
    229.9150    232.5900    1.6846e+13    1.00
    232.5900    235.3150    1.4570e+13    1.00
    235.3150    238.1150    1.7716e+13    1.00
    238.1150    240.9900    1.4700e+13    1.00
    240.9900    243.9150    2.3204e+13    1.00
    243.9150    246.9150    2.1050e+13    1.00
    246.9150    250.0150    2.1247e+13    1.00
    250.0150    253.1900    2.0227e+13    1.00
    253.1900    256.4150    2.9328e+13    1.00
    256.4150    259.7400    5.2435e+13    1.00
    259.7400    263.1900    4.6223e+13    1.00
    263.1900    266.7150    1.1570e+14    1.00
    266.7150    270.3150    1.2744e+14    1.00
    270.3150    274.0150    1.1978e+14    1.00
    274.0150    277.8150    1.0983e+14    1.00
    277.8150    281.7150    8.0570e+13    1.00
    281.7150    285.7350    1.5065e+14    1.00
    285.7350    289.8850    2.2299e+14    1.00
    289.8850    294.1350    3.6102e+14    1.00
    294.1350    298.5050    3.4597e+14    1.00